Folder: 2024_BaZrS3_Phase_Transitions

Note: 62_NEP_thermal_properties.yaml
# Thermal properties / unit cell (natom)

unit:
  temperature:   K
  free_energy:   kJ/mol
  entropy:       J/K/mol
  heat_capacity: J/K/mol

natom: 20   
cutoff_frequency: 0.00000
num_modes: 480000
num_integrated_modes: 480000

zero_point_energy:      61.9580205

thermal_properties:
- temperature:         0.0000000
  free_energy:        61.9580205
  entropy:             0.0000000
  heat_capacity:       0.0000000
  energy:             61.9580205

- temperature:        10.0000000
  free_energy:        61.9562727
  entropy:             0.9119778
  heat_capacity:       3.9225140
  energy:             61.9653924

- temperature:        20.0000000
  free_energy:        61.9042141
  entropy:            11.8320242
  heat_capacity:      35.0691111
  energy:             62.1408546

- temperature:        30.0000000
  free_energy:        61.6824874
  entropy:            33.8427223
  heat_capacity:      76.7471606
  energy:             62.6977691

- temperature:        40.0000000
  free_energy:        61.2079876
  entropy:            61.7599669
  heat_capacity:     119.2996984
  energy:             63.6783863

- temperature:        50.0000000
  free_energy:        60.4368652
  entropy:            92.8371799
  heat_capacity:     160.3604125
  energy:             65.0787242

- temperature:        60.0000000
  free_energy:        59.3460649
  entropy:           125.4856603
  heat_capacity:     198.3349276
  energy:             66.8752045

- temperature:        70.0000000
  free_energy:        57.9253914
  entropy:           158.6740775
  heat_capacity:     232.4763107
  energy:             69.0325768

- temperature:        80.0000000
  free_energy:        56.1730496
  entropy:           191.7306577
  heat_capacity:     262.6596631
  energy:             71.5115022

- temperature:        90.0000000
  free_energy:        54.0926579
  entropy:           224.2287705
  heat_capacity:     289.0906205
  energy:             74.2732473

- temperature:       100.0000000
  free_energy:        51.6912176
  entropy:           255.9075030
  heat_capacity:     312.1188143
  energy:             77.2819679

- temperature:       110.0000000
  free_energy:        48.9777474
  entropy:           286.6167829
  heat_capacity:     332.1376806
  energy:             80.5055935

- temperature:       120.0000000
  free_energy:        45.9623738
  entropy:           316.2800854
  heat_capacity:     349.5342634
  energy:             83.9159840

- temperature:       130.0000000
  free_energy:        42.6557295
  entropy:           344.8692594
  heat_capacity:     364.6658645
  energy:             87.4887332

- temperature:       140.0000000
  free_energy:        39.0685604
  entropy:           372.3875499
  heat_capacity:     377.8509089
  energy:             91.2028173

- temperature:       150.0000000
  free_energy:        35.2114722
  entropy:           398.8581410
  heat_capacity:     389.3672326
  energy:             95.0401933

- temperature:       160.0000000
  free_energy:        31.0

Note: 140_NEP_thermal_properties.yaml
# Thermal properties / unit cell (natom)

unit:
  temperature:   K
  free_energy:   kJ/mol
  entropy:       J/K/mol
  heat_capacity: J/K/mol

natom: 10   
cutoff_frequency: 0.00000
num_modes: 240000
num_integrated_modes: 239944

zero_point_energy:      30.1410559

thermal_properties:
- temperature:         0.0000000
  free_energy:        30.1410559
  entropy:             0.0000000
  heat_capacity:       0.0000000
  energy:             30.1410559

- temperature:        10.0000000
  free_energy:        30.1381880
  entropy:             1.3141190
  heat_capacity:       4.6138571
  energy:             30.1513292

- temperature:        20.0000000
  free_energy:        30.0863746
  entropy:            10.3631780
  heat_capacity:      24.9082075
  energy:             30.2936382

- temperature:        30.0000000
  free_energy:        29.9141033
  entropy:            24.5999707
  heat_capacity:      46.6843542
  energy:             30.6521024

- temperature:        40.0000000
  free_energy:        29.5875590
  entropy:            40.9359560
  heat_capacity:      67.7439607
  energy:             31.2249972

- temperature:        50.0000000
  free_energy:        29.0922999
  entropy:            58.2116064
  heat_capacity:      87.5756501
  energy:             32.0028802

- temperature:        60.0000000
  free_energy:        28.4222889
  entropy:            75.8059046
  heat_capacity:     105.6594736
  energy:             32.9706432

- temperature:        70.0000000
  free_energy:        27.5764310
  entropy:            93.3302492
  heat_capacity:     121.7946575
  energy:             34.1095484

- temperature:        80.0000000
  free_energy:        26.5567345
  entropy:           110.5425967
  heat_capacity:     136.0150773
  energy:             35.4001423

- temperature:        90.0000000
  free_energy:        25.3671084
  entropy:           127.2982018
  heat_capacity:     148.4656625
  energy:             36.8239466

- temperature:       100.0000000
  free_energy:        24.0125676
  entropy:           143.5160289
  heat_capacity:     159.3308433
  energy:             38.3641705

- temperature:       110.0000000
  free_energy:        22.4987158
  entropy:           159.1563354
  heat_capacity:     168.8004322
  energy:             40.0059127

- temperature:       120.0000000
  free_energy:        20.8314116
  entropy:           174.2059746
  heat_capacity:     177.0542928
  energy:             41.7361286

- temperature:       130.0000000
  free_energy:        19.0165536
  entropy:           188.6687652
  heat_capacity:     184.2558924
  energy:             43.5434931

- temperature:       140.0000000
  free_energy:        17.0599451
  entropy:           202.5591363
  heat_capacity:     190.5501916
  energy:             45.4182241

- temperature:       150.0000000
  free_energy:        14.9672100
  entropy:           215.8979091
  heat_capacity:     196.0637308
  energy:             47.3518963

- temperature:       160.0000000
  free_energy:        12.7

Note: README.md
# 2024_BaZrS3_Phase_Transitions

File: XRD_exp.csv
2Theta,Ortho,Tetrag
15.0045,1811.98	,1856.98
15.1605,1723.53	,1866.17
15.3165,1767.97	,1780.23
15.4725,1884.05	,1766.62
15.6285,1792.59	,1809.3
15.7845,1790.9	,1843.19
15.9405,1846.58	,1829.02
16.0965,1793.43	,1836.18
16.2525,1841.53	,1845.69
16.4085,1843.52	,1824.7
16.5645,1741.57	,1776.23
16.7205,1774.6	,1811.91
16.8765,1783.16	,1766.87
17.0325,1795.55	,1753.92
17.1885,1763.69	,1873.02
17.3445,1758.83	,1781.08
17.5005,1712.18	,1853.64
17.6565,1828.84	,1969.07
17.8125,1927.02	,1804.32
17.9685,1801.88	,1729.39
18.1245,1765.76	,1734.44
18.2805,1705.63	,1778.87
18.4365,1782.68	,1758.45
18.5925,1733.73	,1696.23
18.7485,1766.85	,1753.02
18.9045,1737.13	,1754.92
19.0605,1642.25	,1726.98
19.2165,1708.76	,1660.59
19.3725,1735.02	,1701.35
19.5285,1713.2	,1734.39
19.6845,1823.06	,1704.51
19.8405,2082.31	,1649.89
19.9965,2069.29	,1712.88
20.1525,1696.21	,1630.01
20.3085,1697.14	,1597.21
20.4645,1758.1	,1774.99
20.6205,1690.57	,1641.86
20.7765,1610.83	,1649.88
20.9325,1566.54	,1696.29
21.0885,1611.11	,1683.18
21.2445,1555.86	,1722.61
21.4005,1697.86	,1640.85
21.5565,1591.03	,1627.01
21.7125,1595.78	,1637.46
21.8685,1627.9	,1625.14
22.0245,1638.53	,1636.84
22.1805,1589.3	,1669
22.3365,1544.89	,1614.59
22.4925,1691.67	,1669.04
22.6485,1725.24	,1590.69
22.8045,1684.11	,1656.94
22.9605,1541.58	,1606.67
23.1165,1499.54	,1560.59
23.2725,1527.9	,1653.93
23.4285,1557.14	,1562.04
23.5845,1622.25	,1618
23.7405,1492.37	,1549.7
23.8965,1519.68	,1561.54
24.0525,1566.04	,1523.93
24.2085,1557.97	,1736.46
24.3645,1653.76	,1734.11
24.5205,1704.33	,1783.54
24.6765,1692.82	,2001.13
24.8325,1864.98	,3412.34
24.9885,2889.87	,16845.9
25.1445,11425	,17744.7
25.3005,22038	,3084.22
25.4565,4695.02	,1971.48
25.6125,1980.14	,1663.83
25.7685,1652.48	,1603.42
25.9245,1681.7	,1566.86
26.0805,1568.55	,1569.99
26.2365,1514.33	,1474.24
26.3925,1498.3	,1472.05
26.5485,1595.02	,1556.33
26.7045,1930.21	,1527.03
26.8605,1696.88	,1472.35
27.0165,1439.38	,1470.97
27.1725,1474.42	,1397.13
27.3285,1525.91	,1479.6
27.4845,1416.89	,1503.33
27.6405,1451.63	,1474.34
27.7965,1379.64	,1515.18
27.9525,1414.89	,1488.08
28.1085,1384.02	,1527.99
28.2645,1664.73	,1440.79
28.4205,1508.04	,1418.13
28.5765,1386.07	,1412.7
28.7325,1379.9	,1461.26
28.8885,1402.87	,1402.14
29.0445,1356.96	,1415.9
29.2005,1370.65	,1384.63
29.3565,1342.8	,1457.84
29.5125,1419.88	,1779.13
29.6685,2018.15	,1525.81
29.8245,1922.78	,1423.44
29.9805,1418.06	,1386.54
30.1365,1296.82	,1394.71
30.2925,1288.51	,1387.84
30.4485,1388.57	,1381.44
30.6045,1369.89	,1694.28
30.7605,1496.06	,3760.6
30.9165,2481.9	,4074.36
31.0725,4190.88	,1545.64
31.2285,2647.83	,1425.86
31.3845,1456.36	,1408.68
31.5405,1352.37	,1327.72
31.6965,1290.89	,1312.48
31.8525,1294.4	,1332.01
32.0085,1282.86	,1431.04
32.1645,1345.48	,1310.64
32.3205,1802.61	,1350.89
32.4765,1436.75	,1383.76
32.6325,1320.19	,1322.65
32.7885,1233.57	,1265.4
32.9445,1245.63	,1265.31
33.1005,1223.02	,1357.33
33.2565,1234.97	,1277.94
33.4125,1224.75	,1267.54
33.5685,1524.15	,1317.76
33.7245,1446.22	,1327.28
33.8805,1262.25	,1270.64
34.0365,1232.41	,1272.03
34.1925,1255.75	,1315.23
34.3485,1200.72	,1291.96
34.5045,1168.62	,1327.98
34.6605,1229.11	,1335.98
34.8165,1239.85	,1376.38
34.9725,1275.07	,1314.45
35.1285,1302.33	,1395.1
35.2845,1289.3	,1622
35.4405,1314.01	,3207.99
35.5965,1427.95	,4895.69
35.7525,1771	,4618.39
35.9085,6243.52	,8041.87
36.0645,13741.8	,1964.38
36.2205,3136.11	,1460.42
36.3765,1429.81	,1357.47
36.5325,1328.54	,1266.18
36.6885,1292.29	,1308.42
36.8445,1291.76	,1234.31
37.0005,1473.98	,1275.55
37.1565,2242.44	,1258.14
37.3125,1624.83	,1258.77
37.4685,1239.74	,1214.93
37.6245,1186.48	,1208.33
37.7805,1098.56	,1233.77
37.9365,1166.74	,1219.33
38.0925,1087.43	,1223.14
38.2485,1141.96	,1213.6
38.4045,1199.04	,1255.47
38.5605,1134.31	,1327.21
38.7165,1162.94	,1185.14
38.8725,1174.35	,1266.01
39.0285,1176.41	,1372.49
39.1845,1163.09	,1390.4
39.3405,1349.02	,1931.62
39.4965,1484.75	,8842.61
39.6525,2842.95	,3586.86
39.8085,7033.34	,1351.42
39.9645,1994.57	,1342.97
40.1205,1265.37	,1207.63
40.2765,1244.45	,1279.72
40.4325,1320.93	,1199.45
40.5885,1190.24	,1219.8
40.7445,1082.11	,1215.13
40.9005,1129.19	,1209.55
41.0565,1087.28	,1169.65
41.2125,1255.83	,1115.08
41.3685,1854.88	,1198.46
41.5245,1733.31	,1140.63
41.6805,1279.14	,1183.97
41.8365,1136.93	,1189.43
41.9925,1097.93	,1169.18
42.1485,1027.62	,1146.85
42.3045,1052.81	,1139.41
42.4605,1023.83	,1142.9
42.6165,1058.31	,1145.82
42.7725,1046.86	,1105.47
42.9285,1075.99	,1180.77
43.0845,1050.5	,1177.75
43.2405,1049.33	,1194.73
43.3965,1063.86	,1172.81
43.5525,1049.54	,1164.89
43.7085,1081.78	,1327.6
43.8645,1132.41	,1829.64
44.0205,1236.86	,5412.15
44.1765,1512.76	,8051.54
44.3325,3503.9	,5354.82
44.4885,7403.28	,1657.8
44.6445,6933.73	,1315.34
44.8005,2645.33	,1246.33
44.9565,1370.26	,1211.57
45.1125,1131.22	,1192.28
45.2685,1108.93	,1185.92
45.4245,1220.6	,1170.71
45.5805,1192.2	,1165.27
45.7365,1090.16	,1357.51
45.8925,1058.01	,2642.44
46.0485,1352.97	,2358.47
46.2045,2678.12	,1326.72
46.3605,2291.53	,1082.47
46.5165,1226.03	,1049.67
46.6725,1006.53	,1115.5
46.8285,1065.25	,1012.97
46.9845,921.664	,1060.12
47.1405,994.552	,1130.53
47.2965,1070.26	,1079.73
47.4525,1059.16	,1056.07
47.6085,962.985	,993.565
47.7645,957.48	,1055.55
47.9205,936.43	,1042.49
48.0765,987.85	,1003.77
48.2325,925.2	,1052.18
48.3885,910.811	,1076.5
48.5445,976.216	,1005.02
48.7005,973.081	,1048.25
48.8565,972.947	,1027.59
49.0125,1120.67	,979.921
49.1685,1303.78	,995.788
49.3245,1029.99	,1023.67
49.4805,938.048	,1059.1
49.6365,939.915	,1057.16
49.7925,938.319	,1036.71
49.9485,942.199	,1040.21
50.1045,973.105	,1025.49
50.2605,927.737	,1042.01
50.4165,907.774	,1002.26
50.5725,930.053	,1014.52
50.7285,915.176	,1037.01
50.8845,925.319	,1038.86
51.0405,913.226	,1120.51
51.1965,924.791	,1620.37
51.3525,981.603	,5320.15
51.5085,1139.71	,3976.23
51.6645,2044.11	,2321.93
51.8205,5756.87	,1440.01
51.9765,3858.56	,1131.24
52.1325,1954.54	,1141.46
52.2885,1374.47	,1008.98
52.4445,1098.58	,1033.67
52.6005,1344.99	,1028.6
52.7565,1132.06	,995.27
52.9125,915.273	,994.339
53.0685,847.535	,945.109
53.2245,889.935	,996.179
53.3805,916.849	,949.52
53.5365,931.273	,998.114
53.6925,925.237	,948.661
53.8485,881.395	,981.183
54.0045,824.934	,1010.55
54.1605,848.934	,1123.14
54.3165,1106.83	,1027.87
54.4725,1179.78	,936.798
54.6285,1050.06	,953.868
54.7845,897.702	,1018.2
54.9405,892.081	,1003.6
55.0965,929.005	,907.914
55.2525,926.678	,928.916
55.4085,913.973	,930.882
55.5645,885.729	,978.625
55.7205,865.156	,897.244
55.8765,847.731	,937.388
56.0325,976.166	,929.054
56.1885,1027.59	,920.344
56.3445,931.221	,923.723
56.5005,869.266	,1013.06
56.6565,886.201	,969.394
56.8125,876.271	,950.836
56.9685,943.738	,935.197
57.1245,881.857	,952.193
57.2805,830.629	,964.792
57.4365,861.451	,996.075
57.5925,859.941	,1123.43
57.7485,822.82	,1651.26
57.9045,881.529	,1383.19
58.0605,910.595	,1408.88
58.2165,1041.55	,2537.85
58.3725,1959.78	,1868.31
58.5285,2679.3	,1069.36
58.6845,2251.07	,981.94
58.8405,1390.31	,953.67
58.9965,999.91	,908.544
59.1525,1167.99	,936.17
59.3085,1349.95	,954.217
59.4645,1203.09	,949.867
59.6205,930.368	,899.407
59.7765,899.161	,948.594
59.9325,849.085	,870.29
60.0885,924.456	,947.954
60.2445,887.181	,930.035
60.4005,793.951	,1018.2
60.5565,832.524	,899.354
60.7125,840.44	,980.601
60.8685,859.954	,1027.64
60.9725,896.953	,952.75